Folder: phd_data_sharing/raw_data/EIS/20.8C EIS Test 6

File: 1_20.8C EIS Test 6 20241203 145529.csv
Step number,Repeats,Step name,Elapsed Time  (s),DC Working Electrode (V),DC Current (A),Frequency (Hz),|Z| (Ohms),Phase (deg),Z' (Ohms),-Z" (Ohms),THD (%),Amplitude (A),Amplitude (V),No of Cycles,Duration of Each Frequency (s)
1,1,Potentiostatic EIS,0.384278,7.65804,-8.46468e-07,2000000,2615.74,-64.4304,1128.97,2359.56,2.59581,0.000183957,0.481145,1225,0.0006125
1,1,Potentiostatic EIS,1.57786,7.6963,-6.89956e-07,1588656.375,4581.35,-66.5772,1821.14,4203.83,4.33807,0.000108195,0.495628,1265,0.00079627
1,1,Potentiostatic EIS,2.69294,7.71614,-9.0004e-07,1261914.75,6555.78,-65.059,2764.47,5944.4,17.3824,7.82039e-05,0.512772,1415,0.00112131
1,1,Potentiostatic EIS,3.79778,7.71853,-9.58634e-07,1.00237e+06,8616.6,-62.876,3928.46,7668.96,9.18555,5.82742e-05,0.502162,1280,0.00127697
1,1,Potentiostatic EIS,4.87673,7.71906,-6.72707e-07,796214.5,10877.6,-59.2451,5562.45,9347.83,9.4192,4.59188e-05,0.499071,1400,0.00175832
1,1,Potentiostatic EIS,5.97134,7.71948,-7.82787e-07,632456,12876.4,-56.6913,7071.07,10761.1,10.2636,3.86431e-05,0.497573,1310,0.00207129
1,1,Potentiostatic EIS,7.09622,7.71956,-7.12878e-07,502377,15437.4,-53.0768,9273.92,12341.3,12.5493,3.22648e-05,0.497916,1340,0.00266732
1,1,Potentiostatic EIS,8.26123,7.71944,-9.05062e-07,399053,17816.7,-49.218,11637.5,13490.8,13.0466,2.80106e-05,0.498445,1355,0.00339554
1,1,Potentiostatic EIS,9.49034,7.71942,-3.58411e-07,316979,21267.8,-43.372,15459.8,14605.3,15.3509,2.34976e-05,0.499303,1390,0.00438515
1,1,Potentiostatic EIS,10.7825,7.71959,-8.24295e-07,251785,22549.7,-40.259,17208.4,14572.6,17.878,2.21376e-05,0.499245,1345,0.00534185
1,1,Potentiostatic EIS,12.164,7.71961,-4.8023e-07,200000,24558.3,-35.1545,20078.9,14140.3,18.15,2.03299e-05,0.499286,1350,0.00675
1,1,Potentiostatic EIS,13.6636,7.71946,-5.60083e-07,158866,26927.5,-30.706,23152.2,13750,21.4595,1.85522e-05,0.499332,1380,0.00868658
1,1,Potentiostatic EIS,15.3009,7.71947,-3.60303e-07,126192,27620,-27.8881,24412.3,12919.2,19.7199,1.80738e-05,0.499479,1355,0.0107376
1,1,Potentiostatic EIS,17.117,7.71942,-7.08737e-07,100237.5,29789.2,-23.7246,27271.7,11985.4,22.5284,1.6829e-05,0.499577,1365,0.0136177
1,1,Potentiostatic EIS,19.1673,7.71964,-4.46841e-07,79621.5,31414.7,-20.9959,29329,11255.9,25.1598,1.58758e-05,0.49924,1365,0.0171436
1,1,Potentiostatic EIS,20.9583,7.71949,-8.56347e-07,63245.6,31265.3,-19.3395,29501.1,10354,22.0611,1.59746e-05,0.499459,1295,0.0204757
1,1,Potentiostatic EIS,22.0312,7.71968,-5.14988e-07,50237.8,33040.4,-18.9998,31240.3,10756.8,25.2824,1.5135e-05,0.499487,1025,0.020403
1,1,Potentiostatic EIS,23.1075,7.71961,-7.1878e-07,39905.3,35049.6,-17.5229,33423.2,10553,25.8296,1.42491e-05,0.499381,815,0.0204233
1,1,Potentiostatic EIS,24.1816,7.71967,-5.96896e-07,31697.8,35627.9,-14.7853,34448.2,9092.13,29.4792,1.40172e-05,0.499126,645,0.0203484
1,1,Potentiostatic EIS,25.2539,7.71971,-6.57284e-07,25178.5,34602,-13.9626,33579.6,8349.09,26.1681,1.44449e-05,0.499489,515,0.020454
1,1,Potentiostatic EIS,26.3293,7.71941,-3.72465e-07,20000,37320.2,-15.1874,36016.8,9777.04,27.8147,1.33799e-05,0.49944,405,0.02025
1,1,Potentiostatic EIS,27.3989,7.71949,-5.35139e-07,15886.6,37622.9,-12.5209,36728.1,8156.48,26.7298,1.32691e-05,0.499537,325,0.0204575
1,1,Potentiostatic EIS,28.474,7.71959,-1.00836e-06,12619.1,40236.7,-13.4657,39130.6,9369.63,28.8264,1.24101e-05,0.499538,255,0.0202074
1,1,Potentiostatic EIS,29.5452,7.71949,-9.62547e-07,10023.8,39646,-13.0366,38624.2,8943.12,26.1856,1.26382e-05,0.499433,205,0.0204514
1,1,Potentiostatic EIS,30.0081,7.72116,2.31766e-07,7962.16,41620.2,-12.4828,40636.3,8996.05,0.213824,1.1966e-05,0.498028,244,0.030645
1,1,Potentiostatic EIS,30.3772,7.72113,2.53927e-07,6324.56,42808.5,-12.46,41800.2,9236.3,0.259728,1.1678e-05,0.499918,194,0.030674
1,1,Potentiostatic EIS,30.7461,7.72113,2.44751e-07,5023.78,44115.2,-12.3825,43089,9459.9,0.278681,1.13424e-05,0.500372,154,0.0306542
1,1,Potentiostatic EIS,31.1172,7.72106,2.44792e-07,3990.53,45410.8,-12.4791,44338,9812.54,0.305329,1.10096e-05,0.499954,122,0.0305724
1,1,Potentiostatic EIS,31.4888,7.72107,2.42737e-07,3169.79,46842.1,-12.6098,45712.3,10226.1,0.242767,1.06808e-05,0.500311,97,0.0306014
1,1,Potentiostatic EIS,31.8598,7.72113,2.48657e-07,2517.85,48289.2,-12.7418,47100,10650.6,0.301036,1.03601e-05,0.50028,77,0.0305816
1,1,Potentiostatic EIS,32.2284,7.72112,2.51049e-07,2000,49884.5,-12.9117,48623.2,11146.6,0.208154,1.003e-05,0.500344,61,0.0304999
1,1,Potentiostatic EIS,32.5991,7.721,2.24707e-07,1588.66,51519.4,-13.0795,50182.8,11659,0.240877,9.70558e-06,0.500025,48,0.0302142
1,1,Potentiostatic EIS,32.9679,7.72107,2.46322e-07,1261.92,53219.5,-13.2352,51805.9,12184.5,0.269131,9.40039e-06,0.500284,38,0.0301129
1,1,Potentiostatic EIS,33.3366,7.72104,2.44433e-07,1002.38,54972.7,-13.3278,53492.1,12672.4,0.243462,9.09553e-06,0.500006,30,0.0299289
1,1,Potentiostatic EIS,33.7053,7.72108,2.55851e-07,796.214,56608,-13.5229,55038.6,13236.9,0.198141,8.83454e-06,0.500105,24,0.0301427
1,1,Potentiostatic EIS,34.078,7.72109,2.33647e-07,632.455,58198.8,-13.8527,56506.1,13934.3,0.202355,8.59033e-06,0.499947,19,0.0300416
1,1,Potentiostatic EIS,34.4449,7.72107,2.46373e-07,502.377,59763.3,-14.4706,57867.3,14933.8,0.242259,8.36572e-06,0.499963,15,0.029858
1,1,Potentiostatic EIS,34.8116,7.72108,2.88094e-07,399.053,61257,-15.1299,59133.6,15988.6,0.246343,8.16388e-06,0.500095,12,0.0300712
1,1,Potentiostatic EIS,35.1775,7.72107,2.34704e-07,316.979,62719,-16.4504,60151.6,17761.1,0.305063,7.97364e-06,0.500098,9,0.028393
1,1,Potentiostatic EIS,35.5443,7.72107,2.37028e-07,251.785,64686,-17.965,61532.2,19951.5,0.298404,7.72887e-06,0.499949,8,0.0317731
1,1,Potentiostatic EIS,35.9412,7.72105,2.7598e-07,200,66666.9,-20.4499,62465.4,23292.6,0.470261,7.49933e-06,0.499957,8,0.04
1,1,Potentiostatic EIS,36.3847,7.72106,2.19879e-07,158.866,69406.3,-22.4725,64135.8,26529.8,0.384864,7.20551e-06,0.500108,8,0.050357
1,1,Potentiostatic EIS,36.8884,7.72106,2.784e-07,126.192,72735.7,-26.0342,65355.4,31924.3,0.449279,6.87477e-06,0.500041,8,0.0633956
1,1,Potentiostatic EIS,37.5609,7.72104,1.7508e-08,100.238,77425.9,-29.3944,67458.2,38002.1,0.123547,6.45772e-06,0.499995,8,0.0798104
1,1,Potentiostatic EIS,38.2436,7.72101,1.69357e-08,79.6215,83138.4,-33.1268,69625.4,45434.6,0.126479,6.01448e-06,0.500034,8,0.100475
1,1,Potentiostatic EIS,39.0479,7.72104,1.94951e-08,63.2457,90580.1,-37.1404,72206.7,54689.6,0.149873,5.51879e-06,0.499893,8,0.126491
1,1,Potentiostatic EIS,40.0113,7.72106,1.68575e-08,50.2378,100103,-41.4085,75078.6,66210.5,0.262157,4.9971e-06,0.500225,8,0.159243
1,1,Potentiostatic EIS,41.1748,7.72098,1.79629e-08,39.9053,112251,-45.1932,79105.6,79640.8,0.178839,4.4548e-06,0.500057,8,0.200475
1,1,Potentiostatic EIS,42.418,7.7204,4.55255e-09,31.6979,127935,-48.9476,84021.1,96476.8,0.457629,3.92496e-06,0.502139,2,0.0630957
1,1,Potentiostatic EIS,43.0935,7.72058,2.02363e-08,25.1785,146774,-52.3732,89607.5,116245,0.537046,3.43116e-06,0.503604,2,0.0794327
1,1,Potentiostatic EIS,43.9497,7.72043,1.98746e-08,20,170309,-55.4294,96637,140237,0.730935,2.94207e-06,0.501061,2,0.0999999
1,1,Potentiostatic EIS,45.0344,7.7206,1.89322e-08,15.8866,199196,-58.2074,104946,169309,0.860043,2.50992e-06,0.499967,2,0.125892
1,1,Potentiostatic EIS,46.3813,7.72129,2.04884e-08,12.6191,234412,-60.6814,114784,204387,0.976498,2.13774e-06,0.501112,2,0.158489
1,1,Potentiostatic EIS,47.9661,7.72105,2.10363e-08,10.0238,277263,-62.8863,126365,246793,1.08012,1.80606e-06,0.500753,2,0.199526
1,1,Potentiostatic EIS,50.2457,7.7209,3.70052e-08,7.96215,328710,-64.8311,139796,297502,1.25501,1.52104e-06,0.49998,2,0.251188
1,1,Potentiostatic EIS,52.7178,7.72162,3.94956e-08,6.32456,392161,-66.6413,155486,360020,1.35526,1.27606e-06,0.500421,2,0.316228
1,1,Potentiostatic EIS,55.8817,7.72098,3.79273e-08,5.02378,469665,-68.226,174220,436156,1.6221,1.06445e-06,0.499936,2,0.398107
1,1,Potentiostatic EIS,60.0456,7.72085,3.85401e-08,3.99053,564420,-69.6263,196498,529112,1.85734,8.8668e-07,0.50046,2,0.501186
1,1,Potentiostatic EIS,64.7626,7.72108,3.92271e-08,3.16979,680349,-70.8261,223451,642608,0.445686,7.35592e-07,0.500459,2,0.630956
1,1,Potentiostatic EIS,71.1894,7.72109,4.87121e-09,2.51786,825012,-71.8634,256813,784023,0.254769,6.06139e-07,0.500072,2,0.794326
1,1,Potentiostatic EIS,78.7545,7.72108,4.81579e-09,2,1.00032e+06,-72.6982,297499,955055,0.221102,5.00064e-07,0.500222,2,0.999999
1,1,Potentiostatic EIS,87.9045,7.72106,4.71527e-09,1.58866,1.21567e+06,-73.3028,349279,1.16441e+06,0.397786,4.11563e-07,0.500326,2,1.25892
1,1,Potentiostatic EIS,102.366,7.72073,4.86377e-09,1.26192,1.47853e+06,-73.6849,415348,1.41899e+06,0.380739,3.38428e-07,0.500377,2,1.58489
1,1,Potentiostatic EIS,116.209,7.72107,5.04814e-09,1.00238,1.79811e+06,-73.8416,500402,1.72708e+06,0.345782,2.7791e-07,0.499712,2,1.99526
1,1,Potentiostatic EIS,119.48,7.72132,5.1629e-09,1,1.80266e+06,-73.8632,501016,1.73164e+06,0.266411,2.77467e-07,0.50018,2,2