Folder: phd_data_sharing/raw_data/EIS/test 2

File: 1_test 2 20241204 163218.csv
Step number,Repeats,Step name,Elapsed Time  (s),DC Working Electrode (V),DC Current (A),Frequency (Hz),|Z| (Ohms),Phase (deg),Z' (Ohms),-Z" (Ohms),THD (%),Amplitude (A),Amplitude (V),No of Cycles,Duration of Each Frequency (s)
1,1,Potentiostatic EIS,0.250352,-0.0174569,-2.95242e-07,2000000,921.227,-3.54698,919.462,56.9934,6.27387,7.81496e-05,0.0719928,1225,0.0006125
1,1,Potentiostatic EIS,1.31831,-0.0180853,-3.87562e-07,1588656.375,1410.04,-28.9141,1234.27,681.751,4.54617,0.000184977,0.260824,1265,0.00079627
1,1,Potentiostatic EIS,2.3862,-0.0257841,-6.87771e-07,1261914.75,1954.91,-35.6887,1587.78,1140.46,11.7719,0.000230449,0.450507,1415,0.00112131
1,1,Potentiostatic EIS,3.47769,-0.00439247,-8.10372e-07,1.00237e+06,2496.3,-37.8833,1970.24,1532.87,7.54941,0.000203486,0.507938,1280,0.00127697
1,1,Potentiostatic EIS,4.55459,0.00680716,-4.55579e-07,796214.5,3005.45,-38.0343,2367.22,1851.76,7.73165,0.000167066,0.502124,1400,0.00175832
1,1,Potentiostatic EIS,5.64242,0.00383408,-4.21212e-07,632456,3491.4,-37.5769,2767.06,2129.15,6.04673,0.000143498,0.501006,1310,0.00207129
1,1,Potentiostatic EIS,6.77015,7.47174e-05,-9.58537e-07,502377,3994.25,-36.7596,3200.01,2390.4,8.27428,0.000124993,0.499234,1340,0.00266732
1,1,Potentiostatic EIS,7.94087,-0.00160097,-1.15186e-06,399053,4442.96,-35.3874,3622.15,2572.93,10.2728,0.000112348,0.499168,1355,0.00339554
1,1,Potentiostatic EIS,9.17338,-0.00376411,-4.39308e-07,316979,4947.37,-33.927,4105.08,2761.31,9.78363,0.000100873,0.499023,1390,0.00438515
1,1,Potentiostatic EIS,10.4686,-0.00249095,-3.6565e-07,251785,5436.41,-32.6818,4575.73,2935.51,6.2659,9.18693e-05,0.499425,1345,0.00534185
1,1,Potentiostatic EIS,11.8594,-0.0019151,-4.79643e-07,200000,5948.17,-31.0012,5098.51,3063.64,5.80115,8.40307e-05,0.499811,1350,0.00675
1,1,Potentiostatic EIS,13.3651,-0.00139411,-6.78511e-07,158866,6388.19,-29.2812,5571.97,3124.44,5.29527,7.82483e-05,0.499896,1380,0.00868658
1,1,Potentiostatic EIS,15.0048,-0.00143944,-9.74383e-07,126192,6903.31,-28.0775,6090.87,3249.15,5.23255,7.24127e-05,0.499827,1355,0.0107376
1,1,Potentiostatic EIS,16.8248,-0.00149031,-4.47004e-07,100237.5,7480.77,-27.1059,6659.12,3408.51,5.66062,6.67796e-05,0.49954,1365,0.0136177
1,1,Potentiostatic EIS,18.8732,-0.00152338,-9.6946e-07,79621.5,7935.22,-25.639,7153.9,3433.57,5.94505,6.29705e-05,0.499543,1365,0.0171436
1,1,Potentiostatic EIS,20.663,-0.00111211,-7.29051e-07,63245.6,8393.35,-24.8347,7617.16,3525.22,5.87532,5.94838e-05,0.499256,1295,0.0204757
1,1,Potentiostatic EIS,21.7381,-0.00141486,-7.78515e-07,50237.8,9004.23,-23.903,8231.96,3648.42,6.60804,5.55213e-05,0.499807,1025,0.020403
1,1,Potentiostatic EIS,22.8138,-0.00118494,-5.32074e-07,39905.3,9368.03,-23.4156,8596.54,3722.84,7.4971,5.33238e-05,0.499505,815,0.0204233
1,1,Potentiostatic EIS,23.8895,-0.00125081,-6.64196e-07,31697.8,9915.4,-22.9615,9129.78,3868.12,7.88419,5.04056e-05,0.499712,645,0.0203484
1,1,Potentiostatic EIS,24.963,-0.00154134,-1.05776e-06,25178.5,10443.4,-22.1703,9671.27,3940.93,8.72777,4.78518e-05,0.499754,515,0.020454
1,1,Potentiostatic EIS,26.039,-0.00122022,-9.33919e-07,20000,11135.1,-21.6834,10347.2,4114.18,9.58353,4.48863e-05,0.499841,405,0.02025
1,1,Potentiostatic EIS,27.1135,-0.00144961,-6.65566e-07,15886.6,11535.5,-21.5098,10732.1,4229.58,9.29731,4.33374e-05,0.499921,325,0.0204575
1,1,Potentiostatic EIS,28.1892,-0.00130699,-6.82782e-07,12619.1,12145.6,-22.0312,11258.7,4555.96,9.76944,4.11658e-05,0.499515,255,0.0202074
1,1,Potentiostatic EIS,29.2597,-0.00130574,-7.6068e-07,10023.8,12697,-21.3159,11828.4,4615.5,12.077,3.93703e-05,0.500007,205,0.0204514
1,1,Potentiostatic EIS,29.6764,-0.00102623,4.02903e-08,7962.16,13391.7,-22.1421,12404,5047.38,0.158403,3.71772e-05,0.497865,244,0.030645
1,1,Potentiostatic EIS,30.0458,-0.00122648,-2.11132e-08,6324.56,14069.6,-22.8156,12968.7,5455.71,0.174615,3.54959e-05,0.499411,194,0.030674
1,1,Potentiostatic EIS,30.4151,-0.00107313,3.11116e-08,5023.78,14826.6,-23.7154,13574.6,5963.16,0.0963437,3.37251e-05,0.500029,154,0.0306542
1,1,Potentiostatic EIS,30.7852,-0.00103282,-3.31e-09,3990.53,15645.9,-24.8244,14200.2,6568.74,0.106842,3.1941e-05,0.499745,122,0.0305724
1,1,Potentiostatic EIS,31.1566,-0.00107227,2.47121e-10,3169.79,16598.2,-25.9482,14924.9,7262.66,0.0805967,3.01269e-05,0.500051,97,0.0306014
1,1,Potentiostatic EIS,31.5259,-0.00110615,2.15722e-08,2517.85,17743.2,-27.1011,15795.1,8083.13,0.0992049,2.81781e-05,0.49997,77,0.0305816
1,1,Potentiostatic EIS,31.8953,-0.00111592,-2.3512e-09,2000,18972.7,-28.4649,16679,9042.76,0.0880421,2.63436e-05,0.499807,61,0.0304999
1,1,Potentiostatic EIS,32.2673,-0.00110389,5.33106e-08,1588.66,20253.7,-30.127,17517.7,10165.7,0.112615,2.46754e-05,0.499768,48,0.0302142
1,1,Potentiostatic EIS,32.6376,-0.0011732,-2.15536e-08,1261.92,21910.3,-31.7119,18639.1,11517.1,0.109827,2.28255e-05,0.500114,38,0.0301129
1,1,Potentiostatic EIS,33.0049,-0.0011853,3.63823e-08,1002.38,23916,-33.2601,19998.3,13116.5,0.108684,2.09073e-05,0.500019,30,0.0299289
1,1,Potentiostatic EIS,33.3742,-0.00117286,-2.86508e-08,796.214,26190.4,-34.7856,21510,14941.8,0.121641,1.90867e-05,0.499889,24,0.0301427
1,1,Potentiostatic EIS,33.7431,-0.00115359,3.71423e-08,632.455,28804.1,-36.1593,23255.8,16995.3,0.123424,1.73583e-05,0.49999,19,0.0300416
1,1,Potentiostatic EIS,34.1561,-0.00118115,2.56842e-08,502.377,31803.9,-37.406,25263.5,19319.6,0.159855,1.57199e-05,0.499954,15,0.029858
1,1,Potentiostatic EIS,34.5273,-0.00115752,5.15704e-08,399.053,35181.9,-38.3849,27577.6,21845.9,0.167482,1.42141e-05,0.500079,12,0.0300712
1,1,Potentiostatic EIS,34.8934,-0.00110904,7.0689e-08,316.979,39005.6,-39.2737,30195.5,24691.5,0.218149,1.28179e-05,0.49997,9,0.028393
1,1,Potentiostatic EIS,35.2602,-0.00113964,9.756e-08,251.785,43236.3,-40.3076,32971.3,27969.2,0.144819,1.15639e-05,0.499982,8,0.0317731
1,1,Potentiostatic EIS,35.659,-0.0011456,3.04432e-08,200,48123.5,-41.139,36242.6,31659.8,0.257659,1.03914e-05,0.50007,8,0.04
1,1,Potentiostatic EIS,36.1062,-0.00110852,6.87145e-08,158.866,53711.9,-41.8388,40016.6,35827.8,0.202694,9.30878e-06,0.499992,8,0.050357
1,1,Potentiostatic EIS,36.6147,-0.00111661,7.17497e-08,126.192,59837.2,-42.689,43983,40570.8,0.305079,8.35748e-06,0.500089,8,0.0633956
1,1,Potentiostatic EIS,37.1982,-0.00119204,8.50912e-08,100.238,66805.2,-43.3847,48551.2,45888.1,0.260989,7.48495e-06,0.500033,8,0.0798104
1,1,Potentiostatic EIS,37.9957,-0.00118191,5.02333e-09,79.6215,75102.6,-44.1694,53869.8,52330.1,0.158598,6.65716e-06,0.49997,8,0.100475
1,1,Potentiostatic EIS,38.8042,-0.00113503,-4.52021e-09,63.2457,84411.2,-45.1256,59556.7,59818.4,0.28684,5.92298e-06,0.499965,8,0.126491
1,1,Potentiostatic EIS,39.778,-0.00112166,4.90816e-09,50.2378,97074.2,-43.7145,70164.5,67084.7,0.780015,5.15183e-06,0.50011,8,0.159243
1,1,Potentiostatic EIS,40.9508,-0.00111673,5.19443e-09,39.9053,106949,-45.9582,74349.3,76878.6,0.163434,4.67472e-06,0.499958,8,0.200475
1,1,Potentiostatic EIS,42.2148,0.000294194,2.42823e-08,31.6979,118977,-47.3135,80664.8,87457.1,4.02695,4.21433e-06,0.50141,2,0.0630957
1,1,Potentiostatic EIS,42.9311,-0.00126821,9.2192e-09,25.1785,135962,-46.9465,92818.8,99349.9,5.44224,3.70374e-06,0.503569,2,0.0794327
1,1,Potentiostatic EIS,43.8456,-0.000406954,3.19454e-09,20,152277,-47.393,103087,112078,5.80373,3.28752e-06,0.50063,2,0.0999999
1,1,Potentiostatic EIS,44.9539,-0.00101742,7.36349e-09,15.8866,173982,-47.7125,117064,128708,6.76202,2.87859e-06,0.500819,2,0.125892
1,1,Potentiostatic EIS,46.2983,-0.00134683,3.06836e-09,12.6191,197647,-48.263,131576,147486,7.90981,2.52637e-06,0.49933,2,0.158489
1,1,Potentiostatic EIS,48.0108,-0.00186612,1.36844e-09,10.0238,225426,-48.5354,149267,168926,9.07081,2.22075e-06,0.500614,2,0.199526
1,1,Potentiostatic EIS,50.1499,-0.000969776,-3.18974e-09,7.96215,258243,-48.3993,171457,193112,10.239,1.93848e-06,0.500597,2,0.251188
1,1,Potentiostatic EIS,52.7888,-0.00169941,1.82298e-09,6.32456,296398,-48.8123,195186,223056,11.7502,1.68967e-06,0.500816,2,0.316228
1,1,Potentiostatic EIS,56.0889,-0.00123582,5.00124e-09,5.02378,341464,-48.1291,227911,254271,13.5265,1.46565e-06,0.500466,2,0.398107
1,1,Potentiostatic EIS,60.6798,-0.00100668,1.01744e-08,3.99053,391939,-47.4152,265217,288575,14.6981,1.27567e-06,0.499978,2,0.501186
1,1,Potentiostatic EIS,65.644,-0.000953509,1.14508e-08,3.16979,452722,-45.5542,317011,323204,2.07511,1.1047e-06,0.500121,2,0.630956
1,1,Potentiostatic EIS,72.2593,-0.00102234,1.17367e-08,2.51786,519425,-43.1355,379045,355144,0.885375,9.63065e-07,0.50024,2,0.794326
1,1,Potentiostatic EIS,80.3321,-0.00102394,1.30492e-08,2,589508,-40.0293,451395,379159,0.391577,8.47762e-07,0.499762,2,0.999999
1,1,Potentiostatic EIS,90.6756,-0.000891143,1.33366e-08,1.58866,660617,-36.353,532048,391586,1.16662,7.57114e-07,0.500159,2,1.25892
1,1,Potentiostatic EIS,103.393,-0.00140598,1.08719e-08,1.26192,727138,-32.2677,614841,388201,0.844646,6.88421e-07,0.500576,2,1.58489
1,1,Potentiostatic EIS,119.9,-0.0011228,1.24206e-08,1.00238,788719,-28.3398,694189,374405,0.275379,6.34059e-07,0.500094,2,1.99526
1,1,Potentiostatic EIS,123.218,-0.00110954,1.26853e-08,1,788807,-28.2963,694551,373919,0.331407,6.3432e-07,0.500356,2,2